File: Concrete Compressive Strength.csv
Cement (component 1)(kg in a m^3 mixture),Blast Furnace Slag (component 2)(kg in a m^3 mixture),Fly Ash (component 3)(kg in a m^3 mixture),Water  (component 4)(kg in a m^3 mixture),Superplasticizer (component 5)(kg in a m^3 mixture),Coarse Aggregate  (component 6)(kg in a m^3 mixture),Fine Aggregate (component 7)(kg in a m^3 mixture),Age (day),"Concrete compressive strength(MPa, megapascals) "
540,0,0,162,2.5,1040,676,28,7.998.611.076
332.5,142.5,0,228,0,932,594,270,40.269.535.256.000.000
198.6,132.4,0,192,0,978.4,825.5,360,44.296.075.096
380,95,0,,0,932,594,365,43.698.299.404
266,114,0,228,0,932,670,28,45.854.290.856
198.6,132.4,0,192,,978.4,825.5,90,38.074.243.671.999.900
427.5,47.5,0,228,0,932,594,270,4.301.296.026
304,76,0,228,0,932,670,28,47.813.781.648
139.6,209.4,0,192,,1047,806.9,90,39.358.047.983.999.900
380,95,0,228,,932,594,90,40.563.252.031.999.900
427.5,47.5,0,228,0,932,594,180,41.836.714.203.999.900
139.6,209.4,0,192,0,1047,806.9,3,806.342.182
380,0,0,228,0,932,670,365,52.516.697.443.999.900
380,95,0,228,0,932,594,270,4.115.137.506
427.5,47.5,0,228,0,932,594,28,37.427.515.183.999.900
304,76,0,228,,932,670,365,55.260.122.448
198.6,132.4,0,192,0,978.4,825.5,180,41.719.503.284
190,190,0,228,0,932,670,,5.369.225.402.399.990
237.5,237.5,0,228,0,932,594,28,30.079.769.451.999.900
475,0,0,228,,932,594,90,42.229.026.048
342,38,0,228,0,932,670,90,5.045.930.106
237.5,237.5,0,228,0,932,594,365,38.995.383.608
427.5,47.5,0,228,0,932,594,90,41.542.997.428
349,0,0,192,,1047,806.9,3,15.049.192.651.999.900
237.5,237.5,0,228,0,932,594,7,26.258.003.984
332.5,142.5,0,228,0,932,594,180,39.779.317.819.999.900
237.5,237.5,0,228,0,932,594,90,33.116.911.232
139.6,209.4,0,192,0,1047,806.9,7,14.589.312.159.999.900
475,0,0,228,0,932,594,365,41.934.619.796
304,76,0,228,0,932,670,180,5.094.882.902
304,76,0,228,0,932,670,270,54.378.282.643.999.900
310,0,0,192,0,971,850.6,3,986.640.156
266,114,0,228,0,932,670,,48.695.621.452
139.6,209.4,0,192,0,1047,806.9,360,44.698.039.603.999.900
190,190,0,228,0,932,670,28,40.856.968.808
374,189.2,0,170.1,10.1,926.1,756.7,3,3.439.795.764
425,106.3,0,153.5,16.5,852.1,887.1,3,33.398.217.439.999.900
375,93.8,0,126.6,23.4,852.1,992.6,3,2.899.936.056
469,117.2,0,137.8,32.2,852.1,840.5,3,401.964.508
388.6,97.1,0,157.9,12.1,852.1,925.7,,28.096.147
425,106.3,0,153.5,16.5,852.1,887.1,3,33.398.217.439.999.900
401.8,94.7,0,147.4,11.4,946.8,852.1,,4.109.966.436
323.7,282.8,0,183.8,10.3,942.7,659.9,3,28.296.095.039.999.900
362.6,189,0,164.9,11.6,944.7,755.8,3,353.011.712
362.6,189,0,164.9,11.6,944.7,755.8,3,353.011.712
389.9,189,0,145.9,22,944.7,755.8,3,4.059.634.688
337.9,189,0,174.9,9.5,944.7,755.8,3,240.971.862
313.3,262.2,0,175.5,8.6,1046.9,611.8,7,4.279.577.532
425,106.3,0,151.4,18.6,936,803.7,7,4.680.163.088
475,118.8,0,181.1,8.9,852.1,781.5,7,5.559.934.464
425,106.3,0,153.5,16.5,852.1,887.1,7,4.920.100.736
531.3,0,0,141.8,28.2,852.1,893.7,7,4.689.815.752
318.8,212.5,0,155.7,14.3,852.1,880.4,7,33.398.217.439.999.900
362.6,189,0,164.9,11.6,944.7,755.8,7,5.589.581.932
379.5,151.2,0,153.9,15.9,1134.3,605,7,4.709.810.556
286.3,200.9,0,144.7,11.2,1004.6,803.7,7,37.997.022.359.999.900
439,177,0,186,11.1,884.9,707.9,7,56.095.767.359.999.900
362.6,189,0,164.9,11.6,944.7,755.8,7,2.289.749.796
374,189.2,0,170.1,10.1,926.1,756.7,28,6.109.446.836
425,106.3,0,153.5,16.5,852.1,887.1,28,602.946.762
375,93.8,0,126.6,23.4,852.1,992.6,,5.669.561.148
469,117.2,0,137.8,32.2,852.1,840.5,28,6.689.985.628
388.6,97.1,0,157.9,12.1,852.1,925.7,28,5.069.717.028
425,106.3,0,153.5,16.5,852.1,887.1,28,602.946.762
401.8,94.7,0,147.4,11.4,946.8,852.1,28,684.994.406
323.7,282.8,0,183.8,10.3,942.7,659.9,28,7.469.782.984
362.6,189,0,164.9,11.6,944.7,755.8,28,7.129.871.315.999.990
362.6,189,0,164.9,11.6,944.7,755.8,28,7.129.871.315.999.990
389.9,189,0,145.9,22,944.7,755.8,28,744.978.818
337.9,189,0,174.9,9.5,944.7,755.8,28,4.989.737.812
313.3,262.2,0,175.5,8.6,1046.9,611.8,56,6.490.037.588
425,106.3,0,151.4,18.6,936,803.7,56,6.490.037.588
475,118.8,0,181.1,8.9,852.1,781.5,56,7.229.845.336
425,106.3,0,153.5,16.5,852.1,887.1,56,6.430.053.176
531.3,0,0,141.8,28.2,852.1,893.7,56,58.798.513.279.999.900
318.8,212.5,0,155.7,14.3,852.1,880.4,56,6.610.006.412
362.6,189,0,164.9,11.6,944.7,755.8,56,7.729.715.436
379.5,151.2,0,153.9,15.9,1134.3,605,56,54.896.079.119.999.900
286.3,200.9,0,144.7,11.2,1004.6,803.7,56,7.299.482.412
439,177,0,186,11.1,884.9,707.9,56,7.169.860.924
362.6,189,0,164.9,11.6,944.7,755.8,56,7.729.715.436
374,189.2,0,170.1,10.1,926.1,756.7,91,6.490.037.588
425,106.3,0,153.5,16.5,852.1,887.1,91,6.519.685.056
375,93.8,0,126.6,23.4,852.1,992.6,91,625.009.994
469,117.2,0,137.8,32.2,852.1,840.5,91,7.069.886.903.999.990
388.6,97.1,0,157.9,12.1,852.1,925.7,91,5.759.882.504
425,106.3,0,153.5,16.5,852.1,887.1,91,6.519.685.056
401.8,94.7,0,147.4,11.4,946.8,852.1,91,7.549.762.199.999.990
379.5,151.2,0,153.9,15.9,1134.3,605,91,5.649.566.344
286.3,200.9,0,144.7,11.2,1004.6,803.7,91,7.680.073.164
439,177,0,186,11.1,884.9,707.9,91,7.329.819.356
362.6,189,0,164.9,11.6,944.7,755.8,91,7.929.663.476
222.36,0,96.67,189.29,4.46,967.08,870.32,3,1.157.630.204
222.36,0,96.67,189.29,4.46,967.08,870.32,28,248.900.836
222.36,0,96.67,189.29,4.46,967.08,870.32,100,407.135.578
233.81,0,94.58,197.89,4.567,947.04,852.16,14,2.213.907.436
233.81,0,94.58,197.89,4.567,947.04,852.16,56,2.766.177.712
194.68,0,100.52,165.62,7.48,1006.4,905.9,3,1.245.193.656
194.68,0,100.52,165.62,7.48,1006.4,905.9,28,2.572.434.956
194.68,0,100.52,165.62,7.48,1006.4,905.9,100,3.734.202.016
190.68,0,125.4,162.14,7.77,1090,804.01,14,21.063.491.799.999.900
190.68,0,125.4,162.14,7.77,1090,804.01,56,3.534.253.976
212.07,0,121.62,180.31,5.69,1057.6,779.32,3,1.247.262.084
212.07,0,121.62,180.31,5.69,1057.6,779.32,28,2.490.387.312
212.07,0,121.62,180.31,5.69,1057.6,779.32,100,396.103.962
229.97,0,118.31,195.47,4.63,1029.4,758.59,14,2.008.443.588
229.97,0,118.31,195.47,4.63,1029.4,758.59,56,3.153.663.224
190.34,0,125.18,161.85,9.88,1088.1,802.59,3,94.458.212
190.34,0,125.18,161.85,9.88,1088.1,802.59,28,2.846.846.404
190.34,0,125.18,161.85,9.88,1088.1,802.59,100,4.038.950.408
166.09,0,163.27,176.46,4.49,1058.6,780.09,14,2.548.303.296
166.09,0,163.27,176.46,4.49,1058.6,780.09,56,2.862.704.352
167.95,42.08,163.83,121.75,5.72,1058.7,780.11,3,774.971.024
167.95,42.08,163.83,121.75,5.72,1058.7,780.11,28,2.424.197.616
167.95,42.08,163.83,121.75,5.72,1058.7,780.11,100,392.311.844
213.72,98.05,24.51,181.71,6.86,1065.8,785.38,14,3.038.520.732
213.72,98.05,24.51,181.71,6.86,1065.8,785.38,56,5.077.301.264
213.76,98.06,24.52,181.74,6.65,1066,785.52,3,1.318.278.112
213.76,98.06,24.52,181.74,6.65,1066,785.52,28,402.309.246
213.76,98.06,24.52,181.74,6.65,1066,785.52,100,49.973.220.479.999.900
229.68,0,118.16,195.23,6.13,1028.1,757.63,14,2.231.833.812
229.68,0,118.16,195.23,6.13,1028.1,757.63,56,3.135.047.372
238.05,0,94.11,186.66,7,949.91,847.01,3,1.993.275.116
238.05,0,94.11,186.66,7,949.91,847.01,28,302.335.226
238.05,0,94.11,186.66,7,949.91,847.01,100,44.298.833
250,0,95.69,187.42,5.53,956.86,861.17,14,2.491.766.264
250,0,95.69,187.42,5.53,956.86,861.17,56,3.832.797.084
212.52,0,100.37,159.32,8.71,1007.8,903.59,3,1.354.130.864
212.52,0,100.37,159.32,8.71,1007.8,903.59,28,31.640.053.639.999.900
212.52,0,100.37,159.32,8.71,1007.8,903.59,100,42.919.881
212.57,0,100.39,159.35,10.37,1003.8,903.79,14,253.727.168
212.57,0,100.39,159.35,10.37,1003.8,903.79,56,44.395.359.639.999.900
212,0,124.78,159,7.84,1085.4,799.54,3,19.519.065.559.999.900
212,0,124.78,159,7.84,1085.4,799.54,28,38.500.339.839.999.900
212,0,124.78,159,7.84,1085.4,799.54,100,478.151.606
231.75,0,121.62,173.96,6.72,1056.4,778.45,14,2.677.235.308
231.75,0,121.62,173.96,6.72,1056.4,778.45,56,4.269.924.868
251.37,0,118.27,188.45,5.75,1028.4,757.73,3,1.722.311.048
251.37,0,118.27,188.45,5.75,1028.4,757.73,28,29.654.362.759.999.900
251.37,0,118.27,188.45,5.75,1028.4,757.73,100,4.358.177.796
251.37,0,118.27,188.45,6.35,1028.4,757.73,14,2.442.813.468
251.37,0,118.27,188.45,6.35,1028.4,757.73,56,3.663.875.464
181.38,0,167.01,169.59,7.56,1055.6,777.8,3,1.362.404.576
181.38,0,167.01,169.59,7.56,1055.6,777.8,28,2.777.209.328
181.38,0,167.01,169.59,7.56,1055.6,777.8,100,453.675.208
182.04,45.21,121.97,170.21,8.19,1059.4,780.65,14,21.504.756.439.999.900
182.04,45.21,121.97,170.21,8.19,1059.4,780.65,56,4.349.904.084
168.88,42.22,124.25,158.33,10.83,1080.8,796.15,3,73.980.774.799.999.900
168.88,42.22,124.25,158.33,10.83,1080.8,796.15,28,3.111.605.188
168.88,42.22,124.25,158.33,10.83,1080.8,796.15,100,4.815.300.384
290.35,0,96.18,168.08,9.41,961.18,865,14,3.467.374.804
290.35,0,96.18,168.08,9.41,961.18,865,56,4.508.483.564
277.05,0,97.39,160.6,11.83,973.9,875.61,3,2.313.881.456
277.05,0,97.39,160.6,11.83,973.9,875.61,28,4.828.400.428
277.05,0,97.39,160.6,11.83,973.9,875.61,100,556.407.132
295.71,0,95.64,171.54,8.87,955.14,859.2,14,352.322.236
295.71,0,95.64,171.54,8.87,955.14,859.2,56,48.718.374.159.999.900
251.81,0,99.94,146.14,12.35,1006,899.76,3,2.102.212.324
251.81,0,99.94,146.14,12.35,1006,899.76,28,3.394.290.348
251.81,0,99.94,146.14,12.35,1006,899.76,100,453.675.208
249.1,0,98.75,158.11,12.8,987.76,889.01,14,286.822.016
249.1,0,98.75,158.11,12.8,987.76,889.01,56,42.030.456.959.999.900
252.31,0,98.75,146.25,14.17,987.76,889.01,3,2.178.054.684
252.31,0,98.75,146.25,14.17,987.76,889.01,28,5.060.064.364
252.31,0,98.75,146.25,14.17,987.76,889.01,100,60.949.678.399.999.900
246.83,0,125.08,143.3,11.99,1086.8,800.89,14,4.221.661.548
246.83,0,125.08,143.3,11.99,1086.8,800.89,56,6.032.225.524
275.07,0,121.35,159.48,9.9,1053.6,777.5,3,2.380.071.152
275.07,0,121.35,159.48,9.9,1053.6,777.5,28,51.331.488.199.999.900
275.07,0,121.35,159.48,9.9,1053.6,777.5,100,5.860.546
297.16,0,117.54,174.8,9.52,1022.8,753.45,14,36.990.387.399.999.900
297.16,0,117.54,174.8,9.52,1022.8,753.45,56,5.195.891.136
213.74,0,174.74,154.79,10.16,1053.5,776.35,3,1.757.474.324
213.74,0,174.74,154.79,10.16,1053.5,776.35,28,4.014.818.748
213.74,0,174.74,154.79,10.16,1053.5,776.35,100,5.007.664.188
213.5,0,174.24,154.61,11.66,1052.3,775.48,14,3.370.158.688
213.5,0,174.24,154.61,11.66,1052.3,775.48,56,514.349.096
277.19,97.82,24.46,160.7,11.19,1061.7,782.46,3,3.044.726.016
277.19,97.82,24.46,160.7,11.19,1061.7,782.46,28,6.314.221.208
277.19,97.82,24.46,160.7,11.19,1061.7,782.46,100,669.481.196
218.23,54.64,123.78,140.75,11.91,1075.7,792.67,14,359.561.734
218.23,54.64,123.78,140.75,11.91,1075.7,792.67,56,6.199.078.716
214.9,53.8,121.89,155.63,9.61,1014.3,780.58,3,1.801.600.788
214.9,53.8,121.89,155.63,9.61,1014.3,780.58,28,5.220.022.796
214.9,53.8,121.89,155.63,9.61,1014.3,780.58,100,5.663.355.864
218.85,0,124.13,158.49,11.33,1078.7,794.91,14,2.604.840.328
218.85,0,124.13,158.49,11.33,1078.7,794.91,56,372.661.778
376,0,0,214.6,0,1003.5,762.36,3,1.627.852.836
376,0,0,214.6,0,1003.5,762.36,28,31.971.002.119.999.900
376,0,0,214.6,0,1003.5,762.36,100,430.577.762
475,0,59,142,1.9,1098,641,28,57.226.507.999.999.900
505,0,60,195,0,1030,630,28,640.178.466
516,0,0,162,8.2,801,802,28,4.136.856
528,0,0,185,6.86,920,720,28,5.683.350.668
385,0,136,158,20,903,768,28,5.555.108.132
450.1,50,0,200,3,1124.4,613.2,28,3.937.597.436
333,17.5,163,167,17.9,996,652,28,4.727.736.932
405,0,0,175,0,1120,695,28,5.230.364.936
516,0,0,162,8.26,801,802,28,4.136.856
160,128,122,182,6.4,824,879,28,3.939.665.864
250,180,95,159,9.45,860,800,28,6.786.512.268
285,190,0,163,7.6,1031,685,28,5.357.917.996
275,180,120,162,10.35,830,765,28,7.623.536.132
165,0.02,143.57,163.81,0,1005.6,900.9,3,1.439.625.888
178.03,129.8,118.6,179.94,3.57,1007.3,746.8,3,2.072.564.856
172.38,13.61,172.37,156.76,4.14,1006.3,856.4,3,2.129.101.888
167,75.4,167,164.03,7.91,1007.3,770.1,3,15.520.104.759.999.900
190.34,0,125.18,166.61,9.88,1079,798.9,3,125.484.632
213.5,0,174.24,159.21,11.66,1043.6,771.9,3,1.560.973.664
251.37,0,118.27,192.94,5.75,1043.6,754.3,3,1.198.309.288
165,128.5,132.1,175.06,8.08,1005.8,746.6,14,3.308.795.324
167.35,129.9,128.62,175.46,7.79,1006.3,746.6,14,31.812.422.639.999.900
173.54,50.05,173.53,164.77,6.47,1006.2,793.5,14,3.300.521.612
173.81,93.37,159.9,172.34,9.73,1007.2,746.6,14,2.955.094.136
250,0,95.69,191.84,5.33,948.9,857.2,14,2.465.566.176
194.68,0,100.52,170.17,7.48,998,901.8,14,2.428.334.472
165,0.02,143.57,163.81,0,1005.6,900.9,28,26.200.088
178.03,129.8,118.6,179.94,3.57,1007.3,746.8,28,391.622.368
172.38,13.61,172.37,156.76,4.14,1006.3,856.4,28,3.368.779.736
167,75.4,167,164.03,7.91,1007.3,770.1,28,4.140.992.856
190.34,0,125.18,166.61,9.88,1079,798.9,28,2.484.871.504
213.5,0,174.24,159.21,11.66,1043.6,771.9,28,4.463.667.624
251.37,0,118.27,192.94,5.75,1043.6,754.3,28,3.327.411.176
165,128.5,132.1,175.06,8.08,1005.8,746.6,,5.372.396.992
167.35,129.9,128.62,175.46,7.79,1006.3,746.6,56,5.172.448.952
173.54,50.05,173.53,164.77,6.47,1006.2,793.5,56,5.377.223.324
173.81,93.37,159.9,172.34,9.73,1007.2,746.6,56,489.872.698
250,0,95.69,191.84,5.33,948.9,857.2,,3.964.487
194.68,0,100.52,170.17,7.48,998,901.8,56,43.388.724.679.999.900
165,0.02,143.57,163.81,0,1005.6,900.9,100,379.556.538
178.03,129.8,118.6,179.94,3.57,1007.3,746.8,100,4.999.390.476
172.38,13.61,172.37,156.76,4.14,1006.3,856.4,100,376.798.634
167,75.4,167,164.03,7.91,1007.3,770.1,,568.128.224
190.34,0,125.18,166.61,9.88,1079,798.9,100,3.356.369.168
213.5,0,174.24,159.21,11.66,1043.6,771.9,100,5.295.865.156
251.37,0,118.27,192.94,5.75,1043.6,754.3,100,4.014.818.748
446,24,79,162,11.64,967,712,28,4.442.293.868
446,24,79,162,10.3,967,712,28,5.338.612.668
446,24,79,162,11.64,967,712,3,25.021.084.039.999.900
446,24,79,162,11.61,967,712,7,5.200.717.468
446,24,79,162,11.64,967,712,7,39.300.132
446,24,79,162,11.64,967,712,56,5.614.403.068
446,24,79,162,10.3,967,712,56,54.765.078.679.999.900
387,20,94,157,13.93,938,845,28,4.668.441.996
387,20,94,157,14.32,938,845,3,22.752.708
387,20,94,157,11.61,938,845,3,3.477.027.468
387,20,94,157,13.93,938,845,7,4.589.841.732
387,20,94,157,14.32,938,845,56,5.633.708.396
387,20,94,157,11.61,938,845,56,6.145.989.064
355,19,97,145,12.25,967,871,28,5.545.455.468
491,26,123,201,3.93,822,699,28,57.915.983.999.999.900
491,26,123,210,3.93,882,699,7,33.488.834.284.729.300
491,26,123,201,3.93,822,699,3,2.954.897.143.054.130
491,26,123,201,3.93,822,699,56,6.185.584.685.418.790
424,22,132,178,8.48,882,750,3,3.201.138.571.527.060
424,22,132,178,8.48,822,750,7,39.004.642.284.729.300
424,22,132,168,8.92,822,750,3,32.109.882.284.729.300
424,22,132,168,8.92,822,750,56,743.649.114.581.204
202,11,141,206,1.72,942,801,3,984.965.714.581.204
202,11,141,206,1.72,942,801,56,2.324.519.085.418.790
284,15,141,179,5.46,842,801,3,13.395.533.715.270.600
284,15,141,179,5.46,842,801,56,44.520.450.284.729.300
359,19,141,154,10.91,942,801,28,59.494.884.039.999.900
359,19,141,154,10.91,942,801,3,23.639.177.145.812.000
359,19,141,154,10.91,942,801,7,38.610.656
359,19,141,154,10.91,942,801,56,6.678.067.543.054.130
289,0,0,192,0,913.2,895.3,90,32.068.218.236
393,0,0,192,0,940.6,785.6,3,19.199.148.695.999.900
393,0,0,192,0,940.6,785.6,28,39.604.880.392
480,0,0,192,0,936.2,712.2,7,34.569.637.164
480,0,0,192,0,936.2,712.2,3,24.404.692.496
255,0,0,192,0,889.8,945,90,21.859.147.104
289,0,0,192,0,913.2,895.3,7,14.596.896.395.999.900
333,0,0,192,0,931.2,842.6,28,31.966.865.263.999.900
289,0,0,192,0,913.2,895.3,28,25.573.354.316
393,0,0,192,0,940.6,785.6,7,27.742.445.811.999.900
158.8,238.2,0,185.7,0,1040.6,734.3,7,9.617.500.724.000.000
238.2,158.8,0,185.7,0,1040.6,734.3,7,15.691.094.808
193.5,290.2,0,185.7,0,998.2,704.3,28,32.626.693.796.000.000
272.8,181.9,0,185.7,0,1012.4,714.3,7,19.765.208.492
220.8,147.2,0,185.7,0,1055,744.3,28,25.745.033.839.999.900
382.5,0,0,185.7,0,1047.8,739.3,7,24.065.470.304
158.8,238.2,0,185.7,0,1040.6,734.3,28,21.066.249.704
255.5,170.3,0,185.7,0,1026.6,724.3,28,32.051.670.812
397,0,0,185.7,0,1040.6,734.3,7,25.447.869.684
295.8,0,0,185.7,0,1091.4,769.3,28,25.216.895.223.999.900
220.8,147.2,0,185.7,0,1055,744.3,7,13.089.012.384
135.7,203.5,0,185.7,0,1076.2,759.3,7,7.507.014.687.999.990
339.2,0,0,185.7,0,1069.2,754.3,7,21.179.323.768
193.5,290.2,0,185.7,0,998.2,704.3,7,17.200.357.771.999.900
290.2,193.5,0,185.7,0,998.2,704.3,7,21.859.147.104
170.3,155.5,0,185.7,0,1026.6,724.3,28,25.726.417.988
228,342.1,0,185.7,0,955.8,674.3,7,21.917.063.088
381.4,0,0,185.7,0,1104.6,784.3,7,1.454.104.884
186.2,124.1,0,185.7,0,1083.4,764.3,7,7.995.853.172
238.1,0,0,185.7,0,1118.8,789.3,7,10.335.934.715.999.900
382.5,0,0,185.7,0,1047.8,739.3,28,37.437.857.324
316.1,210.7,0,185.7,0,977,689.3,7,24.437.787.344
170.3,155.5,0,185.7,0,1026.6,724.3,7,10.730.314.988
339,0,0,197,0,968,781,3,1.322.414.968
339,0,0,197,0,968,781,14,2.704.124.872
339,0,0,197,0,968,781,90,3.517.017.076
339,0,0,197,0,968,781,365,3.889.334.116
236,0,0,194,0,968,885,14,1.283.804.312
236,0,0,194,0,968,885,90,21.946.021.079.999.900
236,0,0,193,0,968,885,365,25.083.136.879.999.900
277,0,0,191,0,968,856,28,25.965.666.159.999.900
277,0,0,191,0,968,856,90,3.125.394.708
277,0,0,191,0,968,856,360,3.370.158.688
254,0,0,198,0,968,863,90,2.694.472.208
254,0,0,198,0,968,863,365,297.853.632
307,0,0,193,0,968,812,365,3.614.922.668
307,0,0,193,0,968,812,28,2.753.077.668
236,0,0,193,0,968,885,7,999.050.724
200,0,0,180,0,1125,845,28,1.224.509.376
225,0,0,181,0,1113,833,28,173.403.214
325,0,0,184,0,1063,783,28,3.057.136.584
275,0,0,183,0,1088,808,28,2.449.708.228
300,0,0,184,0,1075,795,28,26.848.195.439.999.900
375,0,0,186,0,1038,758,28,3.821.075.992
400,0,0,187,0,1025,745,7,30.143.890.719.999.900
250,0,0,182,0,1100,820,28,2.087.043.852
350,0,0,186,0,1050,770,28,3.429.453.624
250.2,166.8,0,203.5,0,977.6,694.1,90,47.714.497.103.999.900
141.3,212,0,203.5,0,971.8,748.5,28,2.989.223.198
122.6,183.9,0,203.5,0,958.2,800.1,90,33.192.064.116.000.000
102,153,0,192,0,887,942,3,4.565.020.596
122.6,183.9,0,203.5,0,958.2,800.1,28,24.290.928.956
200,133,0,192,0,965.4,806.2,3,11.414.275.179.999.900
305.3,203.5,0,203.5,0,965.4,631,7,25.893.960.655.999.900
116,173,0,192,0,909.8,891.9,90,31.023.662.096.000.000
157,236,0,192,0,935.4,781.2,28,33.664.355.176
250.2,166.8,0,203.5,,977.6,694.1,7,1.935.014.394
192,288,0,192,0,929.8,716.1,3,12.788.400.847.999.900
153,102,0,192,0,888,943.1,3,4.782.205.536
305.3,203.5,0,203.5,0,965.4,631,28,43.377.003.588
173,116,0,192,0,946.8,856.8,3,6.940.954.892
236,157,0,192,0,972.6,749.1,3,13.565.440.299.999.900
166.8,250.2,0,203.5,0,975.6,692.6,7,15.748.321.315.999.900
288,192,0,192,0,932,717.8,28,38.804.398.756.000.000
102,153,0,192,0,887,942,28,17.275.510.655.999.900
183.9,122.6,0,203.5,0,959.2,800,28,24.046.164.976
192,288,0,192,0,929.8,716.1,90,50.732.333.556
305.3,203.5,0,203.5,0,965.4,631,3,14.143.910.664
108.3,162.4,0,203.5,0,938.2,849,3,2.331.807.832
288,192,0,192,0,932,717.8,7,23.523.542.168
212,141.3,0,203.5,0,973.4,750,90,39.700.028.079.999.900
236,157,0,192,0,972.6,749.1,28,3.288.455.782
183.9,122.6,0,203.5,0,959.2,800,7,10.787.541.496
203.5,305.3,0,203.5,0,963.4,630,28,41.684.340.008
133,200,0,192,,927.4,839.2,3,6.883.728.383.999.990
200,133,0,192,0,965.4,806.2,7,17.165.883.972
250.2,166.8,0,203.5,0,977.6,694.1,3,9.731.264.264
153,102,0,192,0,888,943.1,90,26.322.814.728
116,173,0,192,0,909.8,891.9,3,6.280.436.883.999.990
250.2,166.8,0,203.5,0,977.6,694.1,28,36.964.187.312
192,288,0,192,0,929.8,716.1,7,2.148.062.478
153,102,0,192,0,888,943.1,7,8.374.375.495.999.990
116,173,0,192,0,909.8,891.9,7,10.089.791.784
122.6,183.9,0,203.5,0,958.2,800.1,7,10.354.550.567.999.900
203.5,305.3,0,203.5,0,963.4,630,90,51.863.763.672
310,0,0,192,0,1012,830,7,1.724.379.476
310,0,0,192,0,1012,830,90,35.763.120.119.999.900
331,0,0,192,0,1025,821,3,14.306.626.999.999.900
331,0,0,192,0,1025,821,28,3.174.347.504
331,0,0,192,0,1025,821,120,39.382.869.119.999.900
349,0,0,192,0,1056,809,7,9.011.451.319.999.990
349,0,0,192,0,1056,809,90,4.065.839.972
238,0,0,186,0,1119,789,7,12.052.040.479.999.900
296,0,0,186,0,1090,769,7,1.891.232.668
297,0,0,186,0,1040,734,7,309.574.724
480,0,0,192,,936,721,90,5.427.555.072
281,0,0,186,0,1104,774,7,1.449.968.028
500,0,0,200,0,1125,613,1,1.263.809.508
500,0,0,200,0,1125,613,7,3.321.205.892
500,0,0,200,0,1125,613,28,440.919.902
540,0,0,173,0,1125,613,14,5.976.377.968
540,0,0,173,,1125,613,90,6.965.776.027.999.990
540,0,0,173,0,1125,613,270,7.416.693.332
350,0,0,203,0,974,775,14,2.253.207.568
350,0,0,203,0,974,775,56,2.997.841.648
350,0,0,203,0,974,775,180,3.272.253.096
385,0,0,186,0,966,763,3,14.699.628.319.999.900
385,0,0,186,0,966,763,14,27.923.778
331,0,0,192,0,978,825,180,3.899.676.256
349,0,0,192,0,1047,806,3,1.498.920.824
382,0,0,186,,1047,739,7,2.400.065.956
382,0,0,186,0,1111,784,7,1.146.598.588
339,0,0,185,0,1069,754,7,21.160.018.439.999.900
295,0,0,185,0,1069,769,7,14.796.154.959.999.900
238,0,0,185,0,1118,789,28,1.754.026.944
296,0,0,192,0,1085,765,28,216.495.464
331,0,0,192,0,879,825,3,1.352.062.436
331,0,0,192,,978,825,28,3.144.700.036
349,0,0,192,0,1047,806,7,1.812.632.404
349,0,0,192,0,1047,806,90,3.948.629.052
349,0,0,192,0,1047,806,360,42.126.983.599.999.900
302,0,0,203,0,974,817,180,2.674.477.404
500,0,0,200,0,1125,613,90,4.722.221.124
500,0,0,200,0,1125,613,270,5.515.808
252,0,0,185,0,1111,784,7,1.371.367.764
339,0,0,185,0,1060,754,28,316.469.484
393,0,0,192,0,940,758,28,3.958.281.716
382,0,0,185,0,1047,739,7,2.400.065.956
252,0,0,186,0,1111,784,7,1.146.598.588
310,0,0,192,,970,850,7,1.498.920.824
310,0,0,192,0,970,850,90,346.806.428
310,0,0,192,0,970,850,360,3.811.423.328
525,0,0,189,0,1125,613,7,4.242.345.828
525,0,0,189,,1125,613,28,5.594.408.264
525,0,0,189,0,1125,613,270,6.711.359.384
322,0,0,203,0,974,800,28,2.517.966.352
302,0,0,203,0,974,817,28,217.529.678
480,0,0,192,0,936,721,3,2.439.366.088
522,0,0,146,0,896,896,28,7.498.740.975.999.990
162,190,148,179,19,838,741,28,3.375.674.496
147,115,89,202,9,860,829,28,1.998.790.924
310,143,111,168,22,914,651,28,3.368.779.736
304,140,0,214,6,895,722,28,3.341.890.172
159,149,116,175,15,953,720,28,2.767.556.664
310,143,0,168,10,914,804,28,452.985.732
151,0,184,167,12,991,772,28,15.568.368.079.999.900
298,137,107,201,6,878,655,28,5.352.402.188
366,187,0,191,7,824,757,28,6.590.701.084
252,97,76,194,8,835,821,28,33.398.217.439.999.900
156,243,0,180,11,1022,698,28,3.736.270.444
298,0,107,186,6,879,815,28,4.263.719.584
287,121,94,188,9,904,696,28,41.940.825.079.999.900
356,0,142,193,11,801,778,28,40.865.242.519.999.900
322,149,0,186,8,951,709,28,5.242.086.028
314,0,113,170,10,925,783,28,3.845.897.128
140,164,128,237,6,869,656,28,35.225.328.839.999.900
298,0,107,,11,880,744,28,31.874.475.479.999.900
160,250,0,168,12,1049,688,28,3.945.181.672
276,116,90,180,9,870,768,28,4.427.814.872
149,139,109,193,6,892,780,28,2.369.039.536
261,100,78,201,9,864,761,28,3.239.847.724
313,0,113,178,8,1002,689,28,3.680.422.888
146,230,0,,3,827,872,28,330.603.742
133,210,0,196,3,949,795,28,31.026.419.999.999.900
152,0,112,184,8,992,816,28,1.217.614.616
140,133,103,,7,916,753,28,364.388.066
300,0,120,212,,878,728,28,2.383.518.532
148,0,137,158,16,1002,830,28,1.795.395.504
153,145,0,178,8,1000,822,28,1.900.885.332
158,0,195,220,11,898,713,28,853.571.288
273,0,90,199,11,931,762,28,3.223.989.776
143,169,143,,8,967,643,28,2.972.331.036
313,161,0,178,10,917,759,28,5.244.154.456
336,0,0,182,3,986,817,28,4.486.420.332
150,237,0,174,12,1069,675,28,37.431.652.039.999.900
331,170,0,195,8,811,802,28,5.661.287.436
155,183,0,193,9,877,868,28,23.786.922
266,112,87,,10,910,745,28,39.417.342.919.999.900
313,145,0,127,8,1000,822,28,4.451.946.532
144,136,106,178,,941,774,28,2.614.492.992
277,117,91,191,7,946,666,28,435.748.832
313,145,0,178,8,1002,689,28,4.105.140.104
289,134,0,195,6,924,760,28,4.624.315.532
145,0,179,,8,824,869,28,1.053.519.328
136,162,126,172,10,923,764,28,2.906.830.816
255,99,77,189,6,919,749,28,3.379.811.352
136,196,98,199,6,847,783,28,2.696.540.636
162,214,164,202,10,820,680,,30.647.208.199.999.900
149,153,194,192,8,935,623,28,24.579.819.399.999.900
159,209,161,201,7,848,669,28,30.881.630.039.999.900
154,174,185,228,7,845,612,28,243.385.028
184,86,190,,6,923,623,28,2.293.197.176
236.9,91.7,71.5,,6,852.9,695.4,28,28.629.801.423.999.900
154.8,183.4,0,193.3,9.1,1047.4,696.7,28,18.287.661.424
296,0,106.7,221.4,10.5,819.2,778.4,28,31.420.110.796.000.000
313.3,145,0,178.5,8,867.2,824,28,40.925.226.931.999.900
153.1,145,113,178.5,8,1001.9,688.7,28,25.559.564.796
149.5,236,0,175.8,12.6,846.8,892.7,28,3.296.384.756
153.1,145,113,178.5,8,867.2,824,28,26.233.182.848.000.000
326.5,0,137.9,199,10.8,801.1,792.5,28,38.630.650.804
261.9,110.5,86.1,195.4,5,895.2,732.6,28,3.371.882.378
150.7,0,185.3,166.7,,1074.5,678,28,13.461.329.424
149,117.6,91.7,182.9,7.1,953.4,780.3,28,23.524.231.644
259.9,100.6,78.4,170.6,10.4,935.7,762.9,28,4.977.327.244
284,119.7,0,168.3,7.2,970.4,794.2,28,40.934.879.596
144.8,0,133.6,180.8,11.1,979.5,811.5,28,13.202.086.448
143.7,170.2,132.6,191.6,8.5,814.1,805.3,28,29.870.858.223.999.900
154.8,0,142.8,193.3,9.1,1047.4,696.7,28,12.459.520.796
134.7,0,165.7,180.2,10,961,804.9,28,13.293.786.756
314,145.3,113.2,178.9,8,869.1,690.2,28,46.234.192.132
145.7,172.6,0,181.9,3.4,985.8,816.8,28,23.744.174.488
148.1,0,182.1,181.4,15,838.9,884.3,,15.526.310.044
298.1,0,107.5,163.6,12.8,953.2,784,28,3.586.585.204.399.990
155.2,183.9,143.2,193.8,9.2,879.6,698.5,28,28.991.086.848.000.000
147.8,175.1,0,171.2,,1000,828.5,28,26.922.658.848
312.7,0,0,178.1,8,999.7,822.2,28,2.510.382.116
154.8,0,142.8,193.3,9.1,877.2,867.7,28,9.738.159.024
272.8,105.1,81.8,209.7,9,904,679.7,28,37.171.030.112
153.6,144.2,112.3,220.1,10.1,923.2,657.9,28,16.503.987.012
151.8,178.1,138.7,167.5,18.3,944,694.6,28,36.349.864.196
143.6,0,174.9,158.4,17.9,942.7,844.5,28,1.542.357.812
374.3,0,0,190.2,6.7,1013.2,730.4,28,39.056.057.496
152.6,238.7,0,200,6.3,1001.8,683.9,28,26.859.916.531.999.900
304.8,0,99.6,196,9.8,959.4,705.2,28,3.012.320.644
141.9,166.6,129.7,173.5,10.9,882.6,785.3,28,4.461.185.510.399.990
321.3,164.2,0,190.5,4.6,870,774,28,5.721.823.428.799.990
279.8,128.9,100.4,172.4,9.5,825.1,804.9,28,52.826.961.643.999.900
164.6,0,150.4,181.6,11.7,1023.3,728.9,28,18.033.934.256
160.2,188,146.4,203.2,11.3,828.7,709.7,28,35.314.271.244
317.9,0,126.5,209.7,5.7,860.5,736.6,28,40.062.002.979.999.900
325.6,166.4,0,174,8.9,881.6,790,28,6.123.581.094
132,206.5,160.9,178.9,5.5,866.9,735.6,28,33.306.517.131.999.900
164.2,0,200.1,181.2,12.6,849.3,846,28,15.091.250.688
321.4,0,127.9,182.5,11.5,870.1,779.7,28,37.265.488.323.999.900
288.4,121,0,177.4,7,907.9,829.5,28,4.214.008.364.399.990
264.5,111,86.5,195.5,5.9,832.6,790.4,,41.542.307.951.999.900
166,259.7,0,183.2,12.7,858.8,826.8,28,37.917.043.144
322.2,0,115.6,196,10.4,817.9,813.4,28,31.178.794.196.000.000
159.1,186.7,0,175.6,11.3,989.6,788.9,,32.768.036.376.000.000
260.9,100.5,78.3,200.6,8.6,864.5,761.5,28,32.401.235.144